####################
# Euclidean normalized differential source counts at 1.4 GHz from the T-RECS catalogue in total intesnity for AGNs+SFGs
# col. 1 =      Log(S [Jy])
# col. 2 =      S^2.5dN/dS[Jy^1.5/sr]
# col. 3 =      higher errors (+)
# col. 4 =      lower errors (-)
##################
     -7.90000   0.00292810  1.08871e-06  1.08871e-06
     -7.70000   0.00457656  1.91613e-06  1.91613e-06
     -7.50000   0.00723779  3.39988e-06  3.39988e-06
     -7.30000    0.0117290  6.11287e-06  6.11287e-06
     -7.10000    0.0193552  1.10769e-05  1.10769e-05
     -6.90000    0.0319932  2.00799e-05  2.00799e-05
     -6.70000    0.0528801  3.64593e-05  3.64593e-05
     -6.50000    0.0868744  6.60779e-05  6.60779e-05
     -6.30000     0.141657  0.000119314  0.000119314
     -6.10000     0.226977  0.000213488  0.000213488
     -5.90000     0.353417  0.000376332  0.000376332
     -5.70000     0.534964  0.000654261  0.000654261
     -5.50000     0.782893   0.00111956   0.00111956
     -5.30000      1.11365   0.00188901   0.00188901
     -5.10000      1.53653   0.00313575   0.00313575
     -4.90000      2.03620   0.00510547   0.00510547
     -4.70000      2.60592   0.00815796   0.00815796
     -4.50000      3.17066    0.0127247    0.0127247
     -4.30000      3.71399    0.0194831    0.0194831
     -4.10000      4.12112    0.0290537    0.0290537
     -3.90000      4.49644    0.0429722    0.0429722
     -3.70000      4.66305    0.0617494    0.0617494
     -3.50000      4.76340    0.0879570    0.0879570
     -3.30000      4.82901     0.125510     0.125510
     -3.10000      5.93932     0.195506     0.195506
     -2.90000      7.21954     0.304353     0.304353
     -2.70000      9.85592     0.501227     0.501227
     -2.50000      13.2608     0.819181     0.819181
     -2.30000      21.0383      1.44148      1.44148
     -2.10000      27.0112      2.32801      2.32801
     -1.90000      39.8353      4.06780      4.06780
     -1.70000      59.6086      6.95970      6.95970
     -1.50000      64.3467      10.2672      10.2672
     -1.30000      81.5240      19.7079      16.2206
     -1.10000      68.4551      28.2151      20.8485
    -0.900000      135.625      56.2965      41.5983
    -0.700000      197.070      100.382      70.3438
    -0.500000      296.269      181.730      120.680
